pic,sound,c1,c2,c3,c4,answerNum,answer,marker,trials.thisRepN,trials.thisTrialN,trials.thisN,trials.thisIndex,intro.keys,intro.rt,Answer1.keys,Answer1.rt,EmpAnswer.keys,EmpAnswer.rt,EndKey.keys,EndKey.rt,date,frameRate,expName,session,participant,
,,,,,,,,,,,,,space,1.14033389091,,,,,,,2018_Nov_19_1223,59.4078063055,HeartBeat2_2,001,,
eyes1.png,heart120_1.wav,playful,comforting,irritated,bored,1,playful,120',0,0,0,0,,,2,1.75022506714,2,1.36887097359,,,2018_Nov_19_1223,59.4078063055,HeartBeat2_2,001,,
eyes3.png,silence.wav,joking,flustered,desire,convinced,3,desire,Silence,0,1,1,1,,,2,1.06870102882,2,33.4846799374,,,2018_Nov_19_1223,59.4078063055,HeartBeat2_2,001,,
eyes5.png,heart120_1.wav,irritated,sarcastic,worried,friendly,3,worried,120',0,2,2,2,,,2,3.15174007416,2,1.85087680817,,,2018_Nov_19_1223,59.4078063055,HeartBeat2_2,001,,
eyes6.png,heart60_2.wav,aghast,fantasizing,impatient,alarmed,2,fantasizing,60',0,3,3,3,,,2,0.901329994202,2,0.836193084717,,,2018_Nov_19_1223,59.4078063055,HeartBeat2_2,001,,
eyes7.png,silence.wav,apologetic,friendly,uneasy,dispirited,3,uneasy,Silence,0,4,4,4,,,2,0.866816043854,2,0.432784080505,,,2018_Nov_19_1223,59.4078063055,HeartBeat2_2,001,,
eyes10.png,heart120_1.wav,cautious,insisting,bored,aghast,1,cautious,120',0,5,5,5,,,2,0.964710950851,2,0.817790985107,,,2018_Nov_19_1223,59.4078063055,HeartBeat2_2,001,,
eyes15.png,heart120_1.wav,contemplative,flustered,encouraging,amused,1,contemplative,120',0,6,6,6,,,2,2.11517596245,2,23.2680652142,,,2018_Nov_19_1223,59.4078063055,HeartBeat2_2,001,,
eyes17.png,heart60_2.wav,doubtful,affectionate,playful,aghast,1,doubtful,60',0,7,7,7,,,2,18.0616459846,2,8.58702802658,,,2018_Nov_19_1223,59.4078063055,HeartBeat2_2,001,,
eyes18.png,heart60_2.wav,amused,decisive,aghast,bored,2,decisive,60',0,8,8,8,,,2,10.7662630081,2,2.73549199104,,,2018_Nov_19_1223,59.4078063055,HeartBeat2_2,001,,
eyes20.png,silence.wav,dominant,horrified,guilty,friendly,4,friendly,Silence,0,9,9,9,,,2,6.75030112267,2,25.5874240398,,,2018_Nov_19_1223,59.4078063055,HeartBeat2_2,001,,
eyes7.png,heart60_2.wav,apologetic,friendly,uneasy,dispirited,3,uneasy,60',0,10,10,10,,,2,1.81064009666,2,22.9341959953,,,2018_Nov_19_1223,59.4078063055,HeartBeat2_2,001,,
eyes17.png,heart120_1.wav,doubtful,affectionate,playful,aghast,1,doubtful,120',0,11,11,11,,,2,0.697502851486,2,9.26771497726,,,2018_Nov_19_1223,59.4078063055,HeartBeat2_2,001,,
eyes5.png,heart60_2.wav,irritated,sarcastic,worried,friendly,3,worried,60',0,12,12,12,,,2,7.72588419914,2,3.57053303719,,,2018_Nov_19_1223,59.4078063055,HeartBeat2_2,001,,
eyes10.png,heart60_2.wav,cautious,insisting,bored,aghast,1,cautious,60',0,13,13,13,,,2,0.717683076859,2,2.10235404968,,,2018_Nov_19_1223,59.4078063055,HeartBeat2_2,001,,
eyes20.png,heart60_2.wav,dominant,horrified,guilty,friendly,4,friendly,60',0,14,14,14,,,2,15.4673080444,2,0.702019929886,,,2018_Nov_19_1223,59.4078063055,HeartBeat2_2,001,,
eyes6.png,silence.wav,aghast,fantasizing,impatient,alarmed,2,fantasizing,Silence,0,15,15,15,,,2,0.550043821335,2,1.00124502182,,,2018_Nov_19_1223,59.4078063055,HeartBeat2_2,001,,
eyes18.png,heart120_1.wav,amused,decisive,aghast,bored,2,decisive,120',0,16,16,16,,,2,2.43286705017,2,1.16986393929,,,2018_Nov_19_1223,59.4078063055,HeartBeat2_2,001,,
eyes1.png,heart60_2.wav,playful,comforting,irritated,bored,1,playful,60',0,17,17,17,,,2,1.74906206131,2,1.03645682335,,,2018_Nov_19_1223,59.4078063055,HeartBeat2_2,001,,
eyes3.png,heart120_1.wav,joking,flustered,desire,convinced,3,desire,120',0,18,18,18,,,2,5.56199097633,2,0.886873006821,,,2018_Nov_19_1223,59.4078063055,HeartBeat2_2,001,,
eyes15.png,silence.wav,contemplative,flustered,encouraging,amused,1,contemplative,Silence,0,19,19,19,,,2,0.863373994827,2,0.718674898148,,,2018_Nov_19_1223,59.4078063055,HeartBeat2_2,001,,
eyes1.png,silence.wav,playful,comforting,irritated,bored,1,playful,Silence,0,20,20,20,,,2,0.684416055679,2,0.685197114944,,,2018_Nov_19_1223,59.4078063055,HeartBeat2_2,001,,
eyes3.png,heart60_2.wav,joking,flustered,desire,convinced,3,desire,60',0,21,21,21,,,2,1.51392412186,2,0.718968868256,,,2018_Nov_19_1223,59.4078063055,HeartBeat2_2,001,,
eyes5.png,silence.wav,irritated,sarcastic,worried,friendly,3,worried,Silence,0,22,22,22,,,2,0.718147039413,2,2.23570799828,,,2018_Nov_19_1223,59.4078063055,HeartBeat2_2,001,,
eyes6.png,heart120_1.wav,aghast,fantasizing,impatient,alarmed,2,fantasizing,120',0,23,23,23,,,2,2.27910900116,2,0.635360002518,,,2018_Nov_19_1223,59.4078063055,HeartBeat2_2,001,,
eyes7.png,heart120_1.wav,apologetic,friendly,uneasy,dispirited,3,uneasy,120',0,24,24,24,,,2,0.660764217377,2,0.819183111191,,,2018_Nov_19_1223,59.4078063055,HeartBeat2_2,001,,
eyes10.png,silence.wav,cautious,insisting,bored,aghast,1,cautious,Silence,0,25,25,25,,,2,15.7660160065,2,0.635375976562,,,2018_Nov_19_1223,59.4078063055,HeartBeat2_2,001,,
eyes15.png,heart120_1.wav,contemplative,flustered,encouraging,amused,1,contemplative,120',0,26,26,26,,,2,0.482824087143,2,0.734678983688,,,2018_Nov_19_1223,59.4078063055,HeartBeat2_2,001,,
eyes17.png,silence.wav,doubtful,affectionate,playful,aghast,1,doubtful,Silence,0,27,27,27,,,2,2.05140209198,2,0.852349042892,,,2018_Nov_19_1223,59.4078063055,HeartBeat2_2,001,,
eyes18.png,silence.wav,amused,decisive,aghast,bored,2,decisive,Silence,0,28,28,28,,,2,0.9648001194,2,0.769068956375,,,2018_Nov_19_1223,59.4078063055,HeartBeat2_2,001,,
eyes20.png,heart120_1.wav,dominant,horrified,guilty,friendly,4,friendly,120',0,29,29,29,,,2,2.00085115433,2,0.752346992493,,,2018_Nov_19_1223,59.4078063055,HeartBeat2_2,001,,
,,,,,,,,,,,,,,,,,,,space,7.26524496078,2018_Nov_19_1223,59.4078063055,HeartBeat2_2,001,,
